<?xml version="1.0" encoding="UTF-8"?>
<ODM xmlns="http://www.cdisc.org/ns/odm/v1.3"
     xmlns:def="http://www.cdisc.org/ns/def/v2.0"
     xmlns:xlink="http://www.w3.org/1999/xlink"
     FileOID="DEF.XYZ789"
     FileType="Snapshot"
     CreationDateTime="2024-06-01T10:00:00"
     ODMVersion="1.3.2">

  <Study OID="STUDY.XYZ789">
    <GlobalVariables>
      <StudyName>XYZ789 Phase III</StudyName>
      <StudyDescription>A randomized, double-blind, placebo-controlled study</StudyDescription>
      <ProtocolName>XYZ789</ProtocolName>
    </GlobalVariables>

    <MetaDataVersion OID="MDV.XYZ789.001"
                     Name="Study XYZ789, Data Definitions"
                     def:DefineVersion="2.0.0"
                     def:StandardName="SDTM-IG"
                     def:StandardVersion="3.4">

      <!-- Demographics Domain -->
      <ItemGroupDef OID="IG.DM"
                    Name="DM"
                    Repeating="No"
                    IsReferenceData="No"
                    Purpose="Tabulation"
                    def:Structure="One record per subject"
                    def:Class="SPECIAL PURPOSE"
                    def:Label="Demographics">
        <ItemRef ItemOID="IT.DM.STUDYID" OrderNumber="1" Mandatory="Yes" Role="Identifier"/>
        <ItemRef ItemOID="IT.DM.DOMAIN" OrderNumber="2" Mandatory="Yes" Role="Identifier"/>
        <ItemRef ItemOID="IT.DM.USUBJID" OrderNumber="3" Mandatory="Yes" Role="Identifier"/>
        <ItemRef ItemOID="IT.DM.SUBJID" OrderNumber="4" Mandatory="Yes" Role="Identifier"/>
        <ItemRef ItemOID="IT.DM.RFSTDTC" OrderNumber="5" Mandatory="No" Role="Timing"/>
        <ItemRef ItemOID="IT.DM.RFENDTC" OrderNumber="6" Mandatory="No" Role="Timing"/>
        <ItemRef ItemOID="IT.DM.SITEID" OrderNumber="7" Mandatory="No" Role="Record Qualifier"/>
        <ItemRef ItemOID="IT.DM.AGE" OrderNumber="8" Mandatory="No" Role="Record Qualifier"/>
        <ItemRef ItemOID="IT.DM.AGEU" OrderNumber="9" Mandatory="No" Role="Record Qualifier"/>
        <ItemRef ItemOID="IT.DM.SEX" OrderNumber="10" Mandatory="No" Role="Record Qualifier"/>
        <ItemRef ItemOID="IT.DM.RACE" OrderNumber="11" Mandatory="No" Role="Record Qualifier"/>
        <ItemRef ItemOID="IT.DM.ARMCD" OrderNumber="12" Mandatory="No" Role="Record Qualifier"/>
        <ItemRef ItemOID="IT.DM.ARM" OrderNumber="13" Mandatory="No" Role="Record Qualifier"/>
      </ItemGroupDef>

      <!-- Adverse Events Domain -->
      <ItemGroupDef OID="IG.AE"
                    Name="AE"
                    Repeating="Yes"
                    IsReferenceData="No"
                    Purpose="Tabulation"
                    def:Structure="One record per adverse event per subject"
                    def:Class="EVENTS"
                    def:Label="Adverse Events">
        <ItemRef ItemOID="IT.AE.STUDYID" OrderNumber="1" Mandatory="Yes" Role="Identifier"/>
        <ItemRef ItemOID="IT.AE.DOMAIN" OrderNumber="2" Mandatory="Yes" Role="Identifier"/>
        <ItemRef ItemOID="IT.AE.USUBJID" OrderNumber="3" Mandatory="Yes" Role="Identifier"/>
        <ItemRef ItemOID="IT.AE.AESEQ" OrderNumber="4" Mandatory="Yes" Role="Identifier"/>
        <ItemRef ItemOID="IT.AE.AETERM" OrderNumber="5" Mandatory="Yes" Role="Topic"/>
        <ItemRef ItemOID="IT.AE.AEDECOD" OrderNumber="6" Mandatory="Yes" Role="Synonym Qualifier"/>
        <ItemRef ItemOID="IT.AE.AESEV" OrderNumber="7" Mandatory="No" Role="Record Qualifier" def:CodeListOID="CL.SEVERITY"/>
        <ItemRef ItemOID="IT.AE.AESER" OrderNumber="8" Mandatory="No" Role="Record Qualifier" def:CodeListOID="CL.NY"/>
        <ItemRef ItemOID="IT.AE.AESTDTC" OrderNumber="9" Mandatory="No" Role="Timing"/>
        <ItemRef ItemOID="IT.AE.AEENDTC" OrderNumber="10" Mandatory="No" Role="Timing"/>
      </ItemGroupDef>

      <!-- Variable Definitions -->
      <ItemDef OID="IT.DM.STUDYID" Name="STUDYID" DataType="text" Length="20" def:Label="Study Identifier"/>
      <ItemDef OID="IT.DM.DOMAIN" Name="DOMAIN" DataType="text" Length="2" def:Label="Domain Abbreviation"/>
      <ItemDef OID="IT.DM.USUBJID" Name="USUBJID" DataType="text" Length="40" def:Label="Unique Subject Identifier"/>
      <ItemDef OID="IT.DM.SUBJID" Name="SUBJID" DataType="text" Length="20" def:Label="Subject Identifier for the Study"/>
      <ItemDef OID="IT.DM.RFSTDTC" Name="RFSTDTC" DataType="text" Length="20" def:Label="Subject Reference Start Date/Time"/>
      <ItemDef OID="IT.DM.RFENDTC" Name="RFENDTC" DataType="text" Length="20" def:Label="Subject Reference End Date/Time"/>
      <ItemDef OID="IT.DM.SITEID" Name="SITEID" DataType="text" Length="10" def:Label="Study Site Identifier"/>
      <ItemDef OID="IT.DM.AGE" Name="AGE" DataType="integer" def:Label="Age"/>
      <ItemDef OID="IT.DM.AGEU" Name="AGEU" DataType="text" Length="10" def:Label="Age Units"/>
      <ItemDef OID="IT.DM.SEX" Name="SEX" DataType="text" Length="2" def:Label="Sex">
        <def:CodeListRef CodeListOID="CL.SEX"/>
      </ItemDef>
      <ItemDef OID="IT.DM.RACE" Name="RACE" DataType="text" Length="60" def:Label="Race">
        <def:CodeListRef CodeListOID="CL.RACE"/>
      </ItemDef>
      <ItemDef OID="IT.DM.ARMCD" Name="ARMCD" DataType="text" Length="20" def:Label="Planned Arm Code"/>
      <ItemDef OID="IT.DM.ARM" Name="ARM" DataType="text" Length="200" def:Label="Description of Planned Arm"/>

      <ItemDef OID="IT.AE.STUDYID" Name="STUDYID" DataType="text" Length="20" def:Label="Study Identifier"/>
      <ItemDef OID="IT.AE.DOMAIN" Name="DOMAIN" DataType="text" Length="2" def:Label="Domain Abbreviation"/>
      <ItemDef OID="IT.AE.USUBJID" Name="USUBJID" DataType="text" Length="40" def:Label="Unique Subject Identifier"/>
      <ItemDef OID="IT.AE.AESEQ" Name="AESEQ" DataType="integer" def:Label="Sequence Number"/>
      <ItemDef OID="IT.AE.AETERM" Name="AETERM" DataType="text" Length="200" def:Label="Reported Term for the Adverse Event"/>
      <ItemDef OID="IT.AE.AEDECOD" Name="AEDECOD" DataType="text" Length="200" def:Label="Dictionary-Derived Term"/>
      <ItemDef OID="IT.AE.AESEV" Name="AESEV" DataType="text" Length="12" def:Label="Severity/Intensity">
        <def:CodeListRef CodeListOID="CL.SEVERITY"/>
      </ItemDef>
      <ItemDef OID="IT.AE.AESER" Name="AESER" DataType="text" Length="2" def:Label="Serious Event">
        <def:CodeListRef CodeListOID="CL.NY"/>
      </ItemDef>
      <ItemDef OID="IT.AE.AESTDTC" Name="AESTDTC" DataType="text" Length="20" def:Label="Start Date/Time of Adverse Event"/>
      <ItemDef OID="IT.AE.AEENDTC" Name="AEENDTC" DataType="text" Length="20" def:Label="End Date/Time of Adverse Event"/>

      <!-- Code Lists -->
      <CodeList OID="CL.SEX" Name="Sex" DataType="text" def:Extensible="No">
        <CodeListItem CodedValue="M">
          <Decode><TranslatedText xml:lang="en">Male</TranslatedText></Decode>
        </CodeListItem>
        <CodeListItem CodedValue="F">
          <Decode><TranslatedText xml:lang="en">Female</TranslatedText></Decode>
        </CodeListItem>
        <CodeListItem CodedValue="U">
          <Decode><TranslatedText xml:lang="en">Unknown</TranslatedText></Decode>
        </CodeListItem>
      </CodeList>

      <CodeList OID="CL.RACE" Name="Race" DataType="text" def:Extensible="Yes">
        <CodeListItem CodedValue="WHITE">
          <Decode><TranslatedText xml:lang="en">White</TranslatedText></Decode>
        </CodeListItem>
        <CodeListItem CodedValue="BLACK OR AFRICAN AMERICAN">
          <Decode><TranslatedText xml:lang="en">Black or African American</TranslatedText></Decode>
        </CodeListItem>
        <CodeListItem CodedValue="ASIAN">
          <Decode><TranslatedText xml:lang="en">Asian</TranslatedText></Decode>
        </CodeListItem>
        <CodeListItem CodedValue="AMERICAN INDIAN OR ALASKA NATIVE">
          <Decode><TranslatedText xml:lang="en">American Indian or Alaska Native</TranslatedText></Decode>
        </CodeListItem>
        <CodeListItem CodedValue="NATIVE HAWAIIAN OR OTHER PACIFIC ISLANDER">
          <Decode><TranslatedText xml:lang="en">Native Hawaiian or Other Pacific Islander</TranslatedText></Decode>
        </CodeListItem>
      </CodeList>

      <CodeList OID="CL.SEVERITY" Name="Severity" DataType="text" def:Extensible="No">
        <CodeListItem CodedValue="MILD">
          <Decode><TranslatedText xml:lang="en">Mild</TranslatedText></Decode>
        </CodeListItem>
        <CodeListItem CodedValue="MODERATE">
          <Decode><TranslatedText xml:lang="en">Moderate</TranslatedText></Decode>
        </CodeListItem>
        <CodeListItem CodedValue="SEVERE">
          <Decode><TranslatedText xml:lang="en">Severe</TranslatedText></Decode>
        </CodeListItem>
      </CodeList>

      <CodeList OID="CL.NY" Name="No Yes Response" DataType="text" def:Extensible="No">
        <CodeListItem CodedValue="N">
          <Decode><TranslatedText xml:lang="en">No</TranslatedText></Decode>
        </CodeListItem>
        <CodeListItem CodedValue="Y">
          <Decode><TranslatedText xml:lang="en">Yes</TranslatedText></Decode>
        </CodeListItem>
      </CodeList>

    </MetaDataVersion>
  </Study>
</ODM>
